Dataset C 1s:11(A_Miguel_02_07_14)
Dwell Time (s)	0.259700
Number of sweeps	3
Kinetic Energy(eV)	Binding Energy(eV)	Intensity(cps)	Transmission Value
1186.690000	300.000000	137.337954	0.144442
1186.790000	299.900000	124.502631	0.144438
1186.890000	299.800000	154.023874	0.144434
1186.990000	299.700000	127.069696	0.144430
1187.090000	299.600000	137.337954	0.144426
1187.190000	299.500000	161.725067	0.144422
1187.290000	299.400000	132.203825	0.144418
1187.390000	299.300000	139.905019	0.144415
1187.490000	299.200000	146.322680	0.144411
1187.590000	299.100000	142.472083	0.144407
1187.690000	299.000000	128.353228	0.144403
1187.790000	298.900000	111.667308	0.144399
1187.890000	298.800000	123.219099	0.144395
1187.990000	298.700000	148.889745	0.144391
1188.090000	298.600000	147.606212	0.144387
1188.190000	298.500000	124.502631	0.144384
1188.290000	298.400000	128.353228	0.144380
1188.390000	298.300000	128.353228	0.144376
1188.490000	298.200000	145.039148	0.144372
1188.590000	298.100000	123.219099	0.144368
1188.690000	298.000000	124.502631	0.144364
1188.790000	297.900000	118.084970	0.144360
1188.890000	297.800000	124.502631	0.144356
1188.990000	297.700000	128.353228	0.144352
1189.090000	297.600000	129.636760	0.144349
1189.190000	297.500000	128.353228	0.144345
1189.290000	297.400000	119.368502	0.144341
1189.390000	297.300000	137.337954	0.144337
1189.490000	297.200000	111.667308	0.144333
1189.590000	297.100000	141.188551	0.144329
1189.690000	297.000000	105.249647	0.144325
1189.790000	296.900000	121.935567	0.144321
1189.890000	296.800000	133.487357	0.144318
1189.990000	296.700000	112.950841	0.144325
1190.090000	296.600000	115.517905	0.144335
1190.190000	296.500000	136.054422	0.144345
1190.290000	296.400000	133.487357	0.144354
1190.390000	296.300000	139.905019	0.144364
1190.490000	296.200000	133.487357	0.144374
1190.590000	296.100000	129.636760	0.144384
1190.690000	296.000000	125.786164	0.144394
1190.790000	295.900000	138.621486	0.144404
1190.890000	295.800000	119.368502	0.144414
1190.990000	295.700000	127.069696	0.144424
1191.090000	295.600000	120.652034	0.144434
1191.190000	295.500000	133.487357	0.144444
1191.290000	295.400000	127.069696	0.144454
1191.390000	295.300000	120.652034	0.144464
1191.490000	295.200000	137.337954	0.144474
1191.590000	295.100000	128.353228	0.144484
1191.690000	295.000000	132.203825	0.144494
1191.790000	294.900000	142.472083	0.144503
1191.890000	294.800000	127.069696	0.144513
1191.990000	294.700000	148.889745	0.144523
1192.090000	294.600000	163.008600	0.144533
1192.190000	294.500000	136.054422	0.144543
1192.290000	294.400000	152.740341	0.144553
1192.390000	294.300000	145.039148	0.144563
1192.490000	294.200000	132.203825	0.144573
1192.590000	294.100000	146.322680	0.144583
1192.690000	294.000000	151.456809	0.144593
1192.790000	293.900000	143.755615	0.144603
1192.890000	293.800000	145.039148	0.144613
1192.990000	293.700000	143.755615	0.144623
1193.090000	293.600000	171.993326	0.144633
1193.190000	293.500000	143.755615	0.144643
1193.290000	293.400000	127.069696	0.144652
1193.390000	293.300000	128.353228	0.144662
1193.490000	293.200000	171.993326	0.144672
1193.590000	293.100000	146.322680	0.144682
1193.690000	293.000000	139.905019	0.144692
1193.790000	292.900000	143.755615	0.144702
1193.890000	292.800000	154.023874	0.144712
1193.990000	292.700000	148.889745	0.144722
1194.090000	292.600000	160.441535	0.144732
1194.190000	292.500000	174.560390	0.144742
1194.290000	292.400000	141.188551	0.144752
1194.390000	292.300000	150.173277	0.144762
1194.490000	292.200000	155.307406	0.144772
1194.590000	292.100000	178.410987	0.144782
1194.690000	292.000000	164.292132	0.144792
1194.790000	291.900000	150.173277	0.144801
1194.890000	291.800000	204.081633	0.144811
1194.990000	291.700000	191.246310	0.144821
1195.090000	291.600000	179.694519	0.144831
1195.190000	291.500000	191.246310	0.144841
1195.290000	291.400000	177.127455	0.144851
1195.390000	291.300000	170.709793	0.144861
1195.490000	291.200000	179.694519	0.144871
1195.590000	291.100000	180.978052	0.144881
1195.690000	291.000000	160.441535	0.144891
1195.790000	290.900000	170.709793	0.144901
1195.890000	290.800000	182.261584	0.144911
1195.990000	290.700000	192.529842	0.144921
1196.090000	290.600000	165.575664	0.144931
1196.190000	290.500000	188.679245	0.144941
1196.290000	290.400000	179.694519	0.144950
1196.390000	290.300000	175.843922	0.144960
1196.490000	290.200000	224.618149	0.144970
1196.590000	290.100000	191.246310	0.144980
1196.690000	290.000000	183.545116	0.144990
1196.790000	289.900000	216.916955	0.145000
1196.890000	289.800000	207.932229	0.145010
1196.990000	289.700000	202.798100	0.145020
1197.090000	289.600000	193.813374	0.145030
1197.190000	289.500000	201.514568	0.145040
1197.290000	289.400000	178.410987	0.145050
1197.390000	289.300000	215.633423	0.145060
1197.490000	289.200000	214.349891	0.145070
1197.590000	289.100000	241.304069	0.145080
1197.690000	289.000000	259.273521	0.145090
1197.790000	288.900000	218.200488	0.145099
1197.890000	288.800000	216.916955	0.145109
1197.990000	288.700000	234.886407	0.145119
1198.090000	288.600000	219.484020	0.145129
1198.190000	288.500000	196.380439	0.145139
1198.290000	288.400000	241.304069	0.145149
1198.390000	288.300000	229.752278	0.145159
1198.490000	288.200000	251.572327	0.145169
1198.590000	288.100000	260.557053	0.145179
1198.690000	288.000000	246.438198	0.145189
1198.790000	287.900000	229.752278	0.145199
1198.890000	287.800000	249.005262	0.145209
1198.990000	287.700000	261.840585	0.145219
1199.090000	287.600000	250.288795	0.145229
1199.190000	287.500000	255.422924	0.145238
1199.290000	287.400000	265.691182	0.145248
1199.390000	287.300000	274.675908	0.145258
1199.490000	287.200000	296.495957	0.145268
1199.590000	287.100000	342.703119	0.145278
1199.690000	287.000000	315.748941	0.145288
1199.790000	286.900000	379.925555	0.145298
1199.890000	286.800000	347.837248	0.145308
1199.990000	286.700000	367.090232	0.145318
1200.090000	286.600000	386.343217	0.145328
1200.190000	286.500000	460.788089	0.145338
1200.290000	286.400000	465.922218	0.145348
1200.390000	286.300000	533.949429	0.145358
1200.490000	286.200000	494.159928	0.145368
1200.590000	286.100000	545.501219	0.145378
1200.690000	286.000000	582.723655	0.145387
1200.790000	285.900000	663.586189	0.145397
1200.890000	285.800000	693.107432	0.145407
1200.990000	285.700000	761.134643	0.145417
1201.090000	285.600000	829.161853	0.145427
1201.190000	285.500000	993.453985	0.145437
1201.290000	285.400000	1105.121294	0.145447
1201.390000	285.300000	1207.803876	0.145457
1201.490000	285.200000	1408.034912	0.145467
1201.590000	285.100000	1732.768579	0.145477
1201.690000	285.000000	1922.731357	0.145487
1201.790000	284.900000	2071.621101	0.145497
1201.890000	284.800000	2297.522783	0.145507
1201.990000	284.700000	2387.370042	0.145517
1202.090000	284.600000	2371.967655	0.145527
1202.190000	284.500000	2078.038763	0.145536
1202.290000	284.400000	1704.530869	0.145546
1202.390000	284.300000	1382.364266	0.145556
1202.490000	284.200000	1031.959954	0.145566
1202.590000	284.100000	809.908869	0.145576
1202.690000	284.000000	654.601463	0.145586
1202.790000	283.900000	478.757541	0.145596
1202.890000	283.800000	387.626749	0.145606
1202.990000	283.700000	273.392376	0.145616
1203.090000	283.600000	195.096907	0.145626
1203.190000	283.500000	161.725067	0.145636
1203.290000	283.400000	116.801438	0.145646
1203.390000	283.300000	97.548453	0.145656
1203.490000	283.200000	71.877808	0.145666
1203.590000	283.100000	50.057759	0.145676
1203.690000	283.000000	37.222436	0.145685
1203.790000	282.900000	42.356565	0.145695
1203.890000	282.800000	56.475420	0.145705
1203.990000	282.700000	30.804775	0.145715
1204.090000	282.600000	46.207162	0.145725
1204.190000	282.500000	32.088307	0.145735
1204.290000	282.400000	39.789501	0.145745
1204.390000	282.300000	17.969452	0.145755
1204.490000	282.200000	24.387113	0.145765
1204.590000	282.100000	35.938904	0.145775
1204.690000	282.000000	21.820049	0.145785
1204.790000	281.900000	15.402387	0.145795
1204.890000	281.800000	8.984726	0.145805
1204.990000	281.700000	33.371839	0.145815
1205.090000	281.600000	16.685920	0.145825
1205.190000	281.500000	20.536516	0.145834
1205.290000	281.400000	21.820049	0.145844
1205.390000	281.300000	20.536516	0.145854
1205.490000	281.200000	16.685920	0.145864
1205.590000	281.100000	25.670646	0.145874
1205.690000	281.000000	15.402387	0.145884
1205.790000	280.900000	23.103581	0.145894
1205.890000	280.800000	28.237710	0.145904
1205.990000	280.700000	12.835323	0.145914
1206.090000	280.600000	11.551791	0.145924
1206.190000	280.500000	20.536516	0.145934
1206.290000	280.400000	11.551791	0.145944
1206.390000	280.300000	34.655372	0.145954
1206.490000	280.200000	24.387113	0.145964
1206.590000	280.100000	14.118855	0.145973
1206.690000	280.000000	20.536516	0.145983
1206.790000	279.900000	23.103581	0.145993
1206.890000	279.800000	26.954178	0.146003
1206.990000	279.700000	20.536516	0.146013
1207.090000	279.600000	12.835323	0.146023
1207.190000	279.500000	15.402387	0.146033
1207.290000	279.400000	15.402387	0.146043
1207.390000	279.300000	11.551791	0.146053
1207.490000	279.200000	16.685920	0.146063
1207.590000	279.100000	21.820049	0.146073
1207.690000	279.000000	19.252984	0.146083
1207.790000	278.900000	24.387113	0.146093
1207.890000	278.800000	19.252984	0.146103
1207.990000	278.700000	20.536516	0.146113
1208.090000	278.600000	15.402387	0.146122
1208.190000	278.500000	19.252984	0.146132
1208.290000	278.400000	21.820049	0.146142
1208.390000	278.300000	15.402387	0.146152
1208.490000	278.200000	19.252984	0.146162
1208.590000	278.100000	8.984726	0.146172
1208.690000	278.000000	10.268258	0.146182
1208.790000	277.900000	12.835323	0.146192
1208.890000	277.800000	15.402387	0.146202
1208.990000	277.700000	11.551791	0.146212
1209.090000	277.600000	23.103581	0.146222
1209.190000	277.500000	17.969452	0.146232
1209.290000	277.400000	23.103581	0.146242
1209.390000	277.300000	16.685920	0.146252
1209.490000	277.200000	21.820049	0.146262
1209.590000	277.100000	20.536516	0.146271
1209.690000	277.000000	15.402387	0.146281
1209.790000	276.900000	14.118855	0.146291


